trial,start_time,rt,correct,hint,fact_id,question,answer,easy_or_hard,alpha,cond,block
1,13366.0,2704.0,True,False,39,väsynyt,tired,hard,0.3,No Hint,1
2,34166.0,1319.0,True,False,39,väsynyt,tired,hard,0.3,No Hint,1
3,39585.0,1697.0,True,False,17,vesi,water,easy,0.3,No Hint,1
4,44498.0,1071.0,True,False,17,vesi,water,easy,0.3,No Hint,1
5,47966.0,1701.0,True,False,22,lyhyt,short,easy,0.3,No Hint,1
6,52551.0,4637.0,True,False,36,runoilija,poet,hard,0.3,No Hint,1
7,62916.0,1585.0,False,False,22,lyhyt,short,easy,0.3,No Hint,1
8,68009.0,8879.0,False,False,36,runoilija,poet,hard,0.3,No Hint,1
9,78550.0,5547.0,True,False,37,hienostelija,snob,hard,0.3,No Hint,1
10,86922.0,8429.0,False,False,39,väsynyt,tired,hard,0.349609375,No Hint,1
11,98038.0,2232.0,True,False,37,hienostelija,snob,hard,0.3,No Hint,1
12,103350.0,1038.0,True,False,17,vesi,water,easy,0.250390625,No Hint,1
13,106558.0,1938.0,True,False,31,yhdeksän,nine,hard,0.3,No Hint,1
14,112348.0,1594.0,True,False,7,hyvä,good,easy,0.3,No Hint,1
15,117378.0,1812.0,True,False,31,yhdeksän,nine,hard,0.3,No Hint,1
16,121617.0,3869.0,True,False,7,hyvä,good,easy,0.3,No Hint,1
17,127513.0,3552.0,False,False,22,lyhyt,short,easy,0.349609375,No Hint,1
18,133183.0,4609.0,False,False,36,runoilija,poet,hard,0.349609375,No Hint,1
19,140727.0,inf,False,False,39,väsynyt,tired,hard,0.39921874999999996,No Hint,1
20,147477.0,2173.0,True,False,46,kahdeksan,eight,hard,0.3,No Hint,1
21,152874.0,1573.0,True,False,37,hienostelija,snob,hard,0.250390625,No Hint,1
22,156529.0,1528.0,True,False,46,kahdeksan,eight,hard,0.3,No Hint,1
23,160634.0,2312.0,True,False,13,pitkä,tall,easy,0.3,No Hint,1
24,166493.0,4215.0,True,False,31,yhdeksän,nine,hard,0.349609375,No Hint,1
25,172725.0,1769.0,True,False,13,pitkä,tall,easy,0.3,No Hint,1
26,179611.0,2853.0,False,False,39,väsynyt,tired,hard,0.42460937499999996,No Hint,1
27,184596.0,945.0,True,False,22,lyhyt,short,easy,0.34921875,No Hint,1
28,187723.0,1604.0,True,False,7,hyvä,good,easy,0.250390625,No Hint,1
29,191221.0,17535.0,False,False,36,runoilija,poet,hard,0.39921874999999996,No Hint,1
30,210820.0,5832.0,False,False,46,kahdeksan,eight,hard,0.349609375,No Hint,1
31,218689.0,1173.0,True,False,31,yhdeksän,nine,hard,0.30000000000000004,No Hint,1
32,221834.0,inf,False,False,39,väsynyt,tired,hard,0.44921875,No Hint,1
33,229587.0,2443.0,True,False,36,runoilija,poet,hard,0.398828125,No Hint,1
34,234261.0,1398.0,True,False,13,pitkä,tall,easy,0.250390625,No Hint,1
35,237725.0,1401.0,True,False,34,maljakko,vase,hard,0.3,No Hint,1
36,244099.0,1452.0,True,False,25,rauhoittaa,calm,hard,0.3,No Hint,1
37,252044.0,1340.0,True,False,34,maljakko,vase,hard,0.3,No Hint,1
38,255386.0,14177.0,True,False,25,rauhoittaa,calm,hard,0.3,No Hint,1
39,271633.0,3673.0,True,False,39,väsynyt,tired,hard,0.49882812499999996,No Hint,1
40,278828.0,2100.0,True,False,46,kahdeksan,eight,hard,0.30000000000000004,No Hint,1
41,282996.0,2253.0,True,False,22,lyhyt,short,easy,0.324609375,No Hint,1
42,289938.0,5686.0,False,False,39,väsynyt,tired,hard,0.5234375,No Hint,1
43,298462.0,8536.0,True,False,36,runoilija,poet,hard,0.44218749999999996,No Hint,1
44,308931.0,3551.0,True,False,39,väsynyt,tired,hard,0.529296875,No Hint,1
45,314535.0,1340.0,True,False,34,maljakko,vase,hard,0.250390625,No Hint,1
46,317877.0,1658.0,True,False,25,rauhoittaa,calm,hard,0.250390625,No Hint,1
47,321613.0,2161.0,True,False,6,viisi,five,easy,0.3,No Hint,1
48,326689.0,4270.0,True,False,36,runoilija,poet,hard,0.443359375,No Hint,1
49,333044.0,inf,True,False,6,viisi,five,easy,0.3,No Hint,1
50,337249.0,inf,True,False,39,väsynyt,tired,hard,0.5296875,No Hint,1
51,347080.0,1425.0,True,False,27,naudanliha,beef,hard,0.3,No Hint,1
52,353593.0,1454.0,True,False,15,talo,house,easy,0.3,No Hint,1
53,358453.0,5060.0,True,False,27,naudanliha,beef,hard,0.3,No Hint,1
54,365734.0,1077.0,True,False,15,talo,house,easy,0.3,No Hint,1
55,369105.0,1686.0,True,False,39,väsynyt,tired,hard,0.529296875,No Hint,1
56,374989.0,3409.0,True,False,43,suuttunut,angry,hard,0.3,No Hint,1
57,381042.0,1440.0,True,False,36,runoilija,poet,hard,0.44296875,No Hint,1
58,384522.0,1216.0,True,False,43,suuttunut,angry,hard,0.3,No Hint,1
59,388093.0,inf,True,False,6,viisi,five,easy,0.349609375,No Hint,1
60,393344.0,7300.0,True,False,17,vesi,water,easy,0.29999999999999993,No Hint,1
61,403407.0,1593.0,True,False,39,väsynyt,tired,hard,0.52890625,No Hint,1
62,407045.0,1642.0,True,False,27,naudanliha,beef,hard,0.250390625,No Hint,1
63,410841.0,2006.0,True,False,4,vuosi,year,easy,0.3,No Hint,1
64,416204.0,1012.0,True,False,15,talo,house,easy,0.250390625,No Hint,1
65,419248.0,1453.0,True,False,4,vuosi,year,easy,0.3,No Hint,1
66,422623.0,1185.0,True,False,28,kalastaa,fish,hard,0.3,No Hint,1
67,427542.0,1370.0,True,False,8,olut,beer,easy,0.3,No Hint,1
68,432292.0,2125.0,False,False,28,kalastaa,fish,hard,0.3,No Hint,1
69,435893.0,2781.0,True,False,8,olut,beer,easy,0.3,No Hint,1
70,440699.0,8065.0,True,False,6,viisi,five,easy,0.39921874999999996,No Hint,1
71,453602.0,1213.0,True,False,43,suuttunut,angry,hard,0.250390625,No Hint,1
72,457213.0,2044.0,True,False,39,väsynyt,tired,hard,0.480078125,No Hint,1
73,461278.0,1262.0,True,False,36,runoilija,poet,hard,0.39335937500000007,No Hint,1
74,464543.0,2026.0,True,False,31,yhdeksän,nine,hard,0.25507812500000004,No Hint,1
75,468707.0,2821.0,True,False,4,vuosi,year,easy,0.348046875,No Hint,1
76,473364.0,1673.0,True,False,6,viisi,five,easy,0.398828125,No Hint,1
77,477707.0,1728.0,True,False,35,kantapää,heel,hard,0.3,No Hint,1
78,484337.0,2004.0,True,False,28,kalastaa,fish,hard,0.250390625,No Hint,1
79,488434.0,2134.0,True,False,35,kantapää,heel,hard,0.3,No Hint,1
80,492943.0,1898.0,True,False,8,olut,beer,easy,0.250390625,No Hint,1
81,496771.0,1326.0,True,False,17,vesi,water,easy,0.250390625,No Hint,1
82,502201.0,1482.0,True,False,10,kenkä,shoe,easy,0.3,No Hint,1
83,506689.0,1784.0,True,False,46,kahdeksan,eight,hard,0.27460937500000004,No Hint,1
84,510813.0,1431.0,True,False,10,kenkä,shoe,easy,0.3,No Hint,1
85,514220.0,4134.0,True,False,4,vuosi,year,easy,0.34921875,No Hint,1
86,520190.0,1915.0,True,False,22,lyhyt,short,easy,0.32421875,No Hint,1
87,524205.0,4052.0,False,False,7,hyvä,good,easy,0.29999999999999993,No Hint,1
88,529725.0,3505.0,False,False,37,hienostelija,snob,hard,0.29999999999999993,No Hint,1
89,534701.0,2080.0,True,False,6,viisi,five,easy,0.3984375,No Hint,1
90,538738.0,2599.0,True,False,35,kantapää,heel,hard,0.324609375,No Hint,1
91,543358.0,2066.0,True,False,16,pieni,small,easy,0.3,No Hint,1
92,549245.0,1997.0,True,False,41,onnellinen,happy,hard,0.3,No Hint,1
93,557760.0,1104.0,True,False,16,pieni,small,easy,0.3,No Hint,1
94,561231.0,1697.0,True,False,41,onnellinen,happy,hard,0.3,No Hint,1
95,565852.0,1628.0,True,False,10,kenkä,shoe,easy,0.250390625,No Hint,1
96,569483.0,8472.0,False,False,13,pitkä,tall,easy,0.29999999999999993,No Hint,1
97,579424.0,2086.0,True,False,39,väsynyt,tired,hard,0.45546875,No Hint,1
98,585738.0,2653.0,True,False,20,paita,shirt,easy,0.3,No Hint,1
99,593929.0,1541.0,True,False,11,kaula,neck,easy,0.3,No Hint,1
100,601124.0,2432.0,True,False,20,paita,shirt,easy,0.3,No Hint,1
101,605616.0,1476.0,True,False,11,kaula,neck,easy,0.3,No Hint,1
102,609163.0,1215.0,True,False,4,vuosi,year,easy,0.347265625,No Hint,1
103,612237.0,898.0,True,False,16,pieni,small,easy,0.250390625,No Hint,1

1,654508.0,9403.0,True,False,44,sairaanhoitaja,nurse,hard,0.3,Hint,2
2,666316.0,2127.0,True,False,44,sairaanhoitaja,nurse,hard,0.3,Hint,2
3,670649.0,1651.0,True,False,18,kolme,three,easy,0.3,Hint,2
4,680526.0,2348.0,True,False,18,kolme,three,easy,0.3,Hint,2
5,686121.0,2535.0,False,False,3,ruma,ugly,easy,0.3,Hint,2
6,691439.0,5238.0,True,False,48,hiekkaranta,beach,hard,0.3,Hint,2
7,707437.0,1264.0,True,False,3,ruma,ugly,easy,0.3,Hint,2
8,712888.0,2089.0,True,False,48,hiekkaranta,beach,hard,0.3,Hint,2
9,717234.0,1448.0,True,False,44,sairaanhoitaja,nurse,hard,0.250390625,Hint,2
10,721046.0,2228.0,True,False,9,lumi,snow,easy,0.3,Hint,2
11,725797.0,2152.0,True,False,12,vaimo,wife,easy,0.3,Hint,2
12,731209.0,1034.0,True,False,9,lumi,snow,easy,0.3,Hint,2
13,734263.0,961.0,True,False,12,vaimo,wife,easy,0.3,Hint,2
14,737218.0,1104.0,True,False,18,kolme,three,easy,0.250390625,Hint,2
15,740346.0,1727.0,True,False,5,neljä,four,easy,0.3,Hint,2
16,746578.0,2382.0,True,False,23,ylpeä,proud,easy,0.3,Hint,2
17,753598.0,1714.0,True,False,5,neljä,four,easy,0.3,Hint,2
18,757335.0,2847.0,True,False,23,ylpeä,proud,easy,0.3,Hint,2
19,764044.0,1239.0,True,False,3,ruma,ugly,easy,0.250390625,Hint,2
20,767337.0,6430.0,True,False,48,hiekkaranta,beach,hard,0.349609375,Hint,2
21,775928.0,3483.0,True,False,47,päivänkakkara,daisy,hard,0.3,Hint,2
22,787357.0,1004.0,True,False,9,lumi,snow,easy,0.250390625,Hint,2
23,790355.0,1843.0,True,False,47,päivänkakkara,daisy,hard,0.3,Hint,2
24,795451.0,894.0,True,False,12,vaimo,wife,easy,0.250390625,Hint,2
25,799076.0,2276.0,True,False,1,käsi,hand,easy,0.3,Hint,2
26,804239.0,2503.0,True,False,5,neljä,four,easy,0.312109375,Hint,2
27,810060.0,1171.0,True,False,1,käsi,hand,easy,0.3,Hint,2
28,813479.0,2568.0,True,False,23,ylpeä,proud,easy,0.32539062499999993,Hint,2
29,818201.0,1469.0,True,False,48,hiekkaranta,beach,hard,0.30000000000000004,Hint,2
30,821850.0,1321.0,True,False,19,kello,clock,easy,0.3,Hint,2
31,830300.0,1559.0,True,False,21,pilvi,cloud,easy,0.3,Hint,2
32,836637.0,735.0,True,False,19,kello,clock,easy,0.3,Hint,2
33,841215.0,739.0,True,False,21,pilvi,cloud,easy,0.3,Hint,2
34,844371.0,1724.0,True,False,47,päivänkakkara,daisy,hard,0.250390625,Hint,2
35,850040.0,2920.0,True,False,29,sianliha,pork,hard,0.3,Hint,2
36,856875.0,5159.0,True,False,26,kiireinen,busy,hard,0.3,Hint,2
37,866570.0,1334.0,True,False,29,sianliha,pork,hard,0.3,Hint,2
38,870059.0,1936.0,True,False,26,kiireinen,busy,hard,0.3,Hint,2
39,875817.0,1169.0,True,False,1,käsi,hand,easy,0.250390625,Hint,2
40,878946.0,4132.0,True,False,30,vasikanliha,veal,hard,0.3,Hint,2
41,888037.0,1890.0,True,False,23,ylpeä,proud,easy,0.29999999999999993,Hint,2
42,892005.0,2170.0,True,False,30,vasikanliha,veal,hard,0.3,Hint,2
43,896526.0,993.0,True,False,19,kello,clock,easy,0.250390625,Hint,2
44,899759.0,1108.0,True,False,21,pilvi,cloud,easy,0.250390625,Hint,2
45,903554.0,1104.0,True,False,5,neljä,four,easy,0.26250000000000007,Hint,2
46,907846.0,1353.0,True,False,24,lapsi,child,easy,0.3,Hint,2
47,913501.0,1602.0,True,False,14,kova,hard,easy,0.3,Hint,2
48,918209.0,5548.0,False,False,24,lapsi,child,easy,0.3,Hint,2
49,926036.0,4143.0,False,False,14,kova,hard,easy,0.3,Hint,2
50,931655.0,5380.0,False,False,29,sianliha,pork,hard,0.349609375,Hint,2
51,937972.0,4177.0,True,True,29,sianliha,pork,hard,0.39921874999999996,Hint,2
52,945795.0,5608.0,False,False,26,kiireinen,busy,hard,0.349609375,Hint,2
53,951913.0,1447.0,True,True,26,kiireinen,busy,hard,0.38671875,Hint,2
54,955480.0,1805.0,True,False,30,vasikanliha,veal,hard,0.250390625,Hint,2
55,959355.0,2694.0,True,False,42,aurinkoinen,sunny,hard,0.3,Hint,2
56,966373.0,1736.0,True,False,24,lapsi,child,easy,0.250390625,Hint,2
57,971759.0,1624.0,True,False,42,aurinkoinen,sunny,hard,0.3,Hint,2
58,975711.0,1412.0,False,False,29,sianliha,pork,hard,0.4058593749999999,Hint,2
59,979215.0,6948.0,False,False,14,kova,hard,easy,0.349609375,Hint,2
60,986349.0,1408.0,True,True,14,kova,hard,easy,0.39921874999999996,Hint,2
61,990177.0,2890.0,True,False,33,vuorovesi,tide,hard,0.3,Hint,2
62,996640.0,5089.0,False,False,26,kiireinen,busy,hard,0.390234375,Hint,2
63,1001891.0,1287.0,True,True,26,kiireinen,busy,hard,0.390625,Hint,2
64,1007144.0,1585.0,True,False,33,vuorovesi,tide,hard,0.3,Hint,2
65,1010663.0,2974.0,True,False,38,kateellisuus,envy,hard,0.3,Hint,2
66,1016917.0,1806.0,True,False,2,pää,head,easy,0.3,Hint,2
67,1021618.0,4357.0,False,False,38,kateellisuus,envy,hard,0.3,Hint,2
68,1026117.0,1886.0,False,True,38,kateellisuus,envy,hard,0.349609375,Hint,2
69,1032965.0,1340.0,True,False,2,pää,head,easy,0.3,Hint,2
70,1036224.0,4691.0,False,False,14,kova,hard,easy,0.42460937499999996,Hint,2
71,1041091.0,1725.0,True,True,14,kova,hard,easy,0.4742187499999999,Hint,2
72,1045512.0,1364.0,True,False,42,aurinkoinen,sunny,hard,0.250390625,Hint,2
73,1049244.0,1491.0,False,False,29,sianliha,pork,hard,0.45546874999999987,Hint,2
74,1052961.0,3651.0,True,False,44,sairaanhoitaja,nurse,hard,0.29999999999999993,Hint,2
75,1059556.0,1315.0,True,False,33,vuorovesi,tide,hard,0.250390625,Hint,2
76,1064025.0,1707.0,True,False,18,kolme,three,easy,0.20078125,Hint,2
77,1068256.0,1848.0,True,False,14,kova,hard,easy,0.42460937499999996,Hint,2
78,1072042.0,1499.0,True,False,29,sianliha,pork,hard,0.4550781249999999,Hint,2
79,1077621.0,3971.0,False,False,38,kateellisuus,envy,hard,0.39921874999999996,Hint,2
80,1081956.0,1060.0,True,True,38,kateellisuus,envy,hard,0.398828125,Hint,2
81,1086305.0,2012.0,True,False,48,hiekkaranta,beach,hard,0.25273437500000007,Hint,2
82,1090631.0,1024.0,True,False,2,pää,head,easy,0.250390625,Hint,2
83,1093723.0,2210.0,True,False,45,seitsemän,seven,hard,0.3,Hint,2
84,1098704.0,4542.0,True,False,26,kiireinen,busy,hard,0.44023437499999996,Hint,2
85,1105253.0,1459.0,True,False,45,seitsemän,seven,hard,0.3,Hint,2
86,1109242.0,1364.0,True,False,23,ylpeä,proud,easy,0.259765625,Hint,2
87,1112654.0,2015.0,True,False,29,sianliha,pork,hard,0.4546874999999999,Hint,2
88,1118241.0,1076.0,True,False,9,lumi,snow,easy,0.20078125,Hint,2
89,1121570.0,2249.0,True,False,12,vaimo,wife,easy,0.22499999999999998,Hint,2
90,1125775.0,2487.0,True,False,26,kiireinen,busy,hard,0.48828125,Hint,2
91,1130346.0,1191.0,True,False,3,ruma,ugly,easy,0.20078125,Hint,2
92,1133519.0,2099.0,True,False,40,sateinen,rainy,hard,0.3,Hint,2
93,1137900.0,1643.0,True,False,38,kateellisuus,envy,hard,0.3984375,Hint,2
94,1142850.0,1480.0,True,False,40,sateinen,rainy,hard,0.3,Hint,2
95,1146508.0,1233.0,True,False,26,kiireinen,busy,hard,0.487890625,Hint,2
96,1149898.0,inf,True,False,44,sairaanhoitaja,nurse,hard,0.31914062499999996,Hint,2
97,1155608.0,979.0,True,False,14,kova,hard,easy,0.4117187499999999,Hint,2
98,1158516.0,919.0,True,False,45,seitsemän,seven,hard,0.250390625,Hint,2
99,1162868.0,3400.0,True,False,32,vesisade,rain,hard,0.3,Hint,2
100,1168769.0,1893.0,True,False,29,sianliha,pork,hard,0.4175781249999999,Hint,2
101,1172866.0,909.0,True,False,32,vesisade,rain,hard,0.3,Hint,2
102,1175860.0,10507.0,False,False,47,päivänkakkara,daisy,hard,0.29999999999999993,Hint,2
103,1187843.0,1134.0,True,False,26,kiireinen,busy,hard,0.45625000000000004,Hint,2
104,1191092.0,1104.0,True,False,40,sateinen,rainy,hard,0.250390625,Hint,2
105,1197981.0,2451.0,True,False,1,käsi,hand,easy,0.20078125,Hint,2
106,1202435.0,1480.0,True,False,38,kateellisuus,envy,hard,0.34882812500000004,Hint,2
107,1206238.0,2540.0,True,False,21,pilvi,cloud,easy,0.25312499999999993,Hint,2
108,1211233.0,955.0,True,False,19,kello,clock,easy,0.20078125,Hint,2
109,1214385.0,4819.0,True,False,32,vesisade,rain,hard,0.349609375,Hint,2
110,1221559.0,1149.0,True,False,24,lapsi,child,easy,0.20625,Hint,2
111,1226122.0,6811.0,False,False,30,vasikanliha,veal,hard,0.29999999999999993,Hint,2
112,1236173.0,1102.0,True,False,14,kova,hard,easy,0.375390625,Hint,2
113,1239201.0,7260.0,True,False,47,päivänkakkara,daisy,hard,0.324609375,Hint,2
114,1250188.0,1195.0,True,False,32,vesisade,rain,hard,0.30000000000000004,Hint,2
115,1253458.0,2578.0,True,False,26,kiireinen,busy,hard,0.45820312500000004,Hint,2

